STUDYID,DOMAIN,USUBJID,SUBJID,RFSTDTC,RFENDTC,SITEID,AGE,AGEU,SEX,RACE,ETHNIC,ARM,ARMCD,COUNTRY,DMDTC
DEMO-STUDY01,DM,DEMO-STUDY01-Site007-0001,Site007-0001,2024-03-25,2025-01-19,Site007,46,YEARS,M,AMERICAN INDIAN OR ALASKA NATIVE,HISPANIC OR LATINO,PLACEBO,DRG20,IND,2024-03-25
DEMO-STUDY01,DM,DEMO-STUDY01-Site003-0002,Site003-0002,2023-08-17,2023-12-12,Site003,28,YEARS,M,AMERICAN INDIAN OR ALASKA NATIVE,NOT HISPANIC OR LATINO,DRUG 20MG,DRG10,BRA,2023-08-17
DEMO-STUDY01,DM,DEMO-STUDY01-Site002-0003,Site002-0003,2023-12-24,2024-11-11,Site002,61,YEARS,F,AMERICAN INDIAN OR ALASKA NATIVE,NOT HISPANIC OR LATINO,PLACEBO,PBO,DEU,2023-12-24
DEMO-STUDY01,DM,DEMO-STUDY01-Site010-0004,Site010-0004,2023-02-05,2023-04-24,Site010,61,YEARS,M,ASIAN,HISPANIC OR LATINO,DRUG 10MG,DRG20,GBR,2023-02-05
DEMO-STUDY01,DM,DEMO-STUDY01-Site007-0005,Site007-0005,2023-09-15,2024-02-22,Site007,74,YEARS,M,ASIAN,HISPANIC OR LATINO,PLACEBO,PBO,IND,2023-09-15
DEMO-STUDY01,DM,DEMO-STUDY01-Site004-0006,Site004-0006,2023-11-26,2024-08-23,Site004,31,YEARS,F,WHITE,NOT HISPANIC OR LATINO,PLACEBO,DRG10,DEU,2023-11-26
DEMO-STUDY01,DM,DEMO-STUDY01-Site007-0007,Site007-0007,2024-03-17,2024-05-20,Site007,25,YEARS,F,WHITE,NOT HISPANIC OR LATINO,DRUG 10MG,DRG10,IND,2024-03-17
DEMO-STUDY01,DM,DEMO-STUDY01-Site004-0008,Site004-0008,2024-05-05,2025-01-07,Site004,35,YEARS,F,BLACK OR AFRICAN AMERICAN,NOT HISPANIC OR LATINO,DRUG 10MG,DRG10,DEU,2024-05-05
DEMO-STUDY01,DM,DEMO-STUDY01-Site009-0009,Site009-0009,2023-11-06,2024-06-30,Site009,38,YEARS,M,BLACK OR AFRICAN AMERICAN,HISPANIC OR LATINO,PLACEBO,DRG10,USA,2023-11-06
DEMO-STUDY01,DM,DEMO-STUDY01-Site009-0010,Site009-0010,2023-06-20,2024-05-15,Site009,32,YEARS,M,WHITE,HISPANIC OR LATINO,PLACEBO,PBO,DEU,2023-06-20
DEMO-STUDY01,DM,DEMO-STUDY01-Site008-0011,Site008-0011,2024-04-30,2024-08-18,Site008,28,YEARS,F,ASIAN,HISPANIC OR LATINO,PLACEBO,DRG20,BRA,2024-04-30
DEMO-STUDY01,DM,DEMO-STUDY01-Site010-0012,Site010-0012,2023-09-02,2023-11-11,Site010,75,YEARS,F,ASIAN,HISPANIC OR LATINO,DRUG 10MG,PBO,BRA,2023-09-02
DEMO-STUDY01,DM,DEMO-STUDY01-Site003-0013,Site003-0013,2024-04-20,2025-01-31,Site003,20,YEARS,M,BLACK OR AFRICAN AMERICAN,HISPANIC OR LATINO,DRUG 20MG,DRG10,GBR,2024-04-20
DEMO-STUDY01,DM,DEMO-STUDY01-Site009-0014,Site009-0014,2023-08-09,2023-10-19,Site009,32,YEARS,F,WHITE,HISPANIC OR LATINO,DRUG 20MG,DRG20,USA,2023-08-09
DEMO-STUDY01,DM,DEMO-STUDY01-Site004-0015,Site004-0015,2023-04-20,2023-12-27,Site004,21,YEARS,M,ASIAN,HISPANIC OR LATINO,PLACEBO,DRG20,GBR,2023-04-20
DEMO-STUDY01,DM,DEMO-STUDY01-Site004-0016,Site004-0016,2024-06-22,2025-06-13,Site004,49,YEARS,M,ASIAN,NOT HISPANIC OR LATINO,DRUG 10MG,DRG10,BRA,2024-06-22
DEMO-STUDY01,DM,DEMO-STUDY01-Site009-0017,Site009-0017,2023-02-11,2023-04-25,Site009,61,YEARS,F,BLACK OR AFRICAN AMERICAN,NOT HISPANIC OR LATINO,DRUG 20MG,DRG10,DEU,2023-02-11
DEMO-STUDY01,DM,DEMO-STUDY01-Site009-0018,Site009-0018,2023-09-02,2024-07-10,Site009,50,YEARS,F,WHITE,NOT HISPANIC OR LATINO,PLACEBO,PBO,GBR,2023-09-02
DEMO-STUDY01,DM,DEMO-STUDY01-Site007-0019,Site007-0019,2024-04-14,2024-09-27,Site007,44,YEARS,F,WHITE,HISPANIC OR LATINO,DRUG 20MG,DRG10,DEU,2024-04-14
DEMO-STUDY01,DM,DEMO-STUDY01-Site008-0020,Site008-0020,2024-01-23,2024-05-27,Site008,49,YEARS,F,WHITE,NOT HISPANIC OR LATINO,PLACEBO,DRG10,USA,2024-01-23
DEMO-STUDY01,DM,DEMO-STUDY01-Site010-0021,Site010-0021,2023-10-09,2024-02-28,Site010,56,YEARS,M,WHITE,NOT HISPANIC OR LATINO,PLACEBO,DRG20,USA,2023-10-09
DEMO-STUDY01,DM,DEMO-STUDY01-Site002-0022,Site002-0022,2023-08-22,2024-05-01,Site002,71,YEARS,M,WHITE,HISPANIC OR LATINO,DRUG 10MG,DRG10,BRA,2023-08-22
DEMO-STUDY01,DM,DEMO-STUDY01-Site010-0023,Site010-0023,2024-03-05,2025-02-21,Site010,72,YEARS,M,ASIAN,NOT HISPANIC OR LATINO,DRUG 20MG,PBO,BRA,2024-03-05
DEMO-STUDY01,DM,DEMO-STUDY01-Site004-0024,Site004-0024,2023-07-31,2024-04-25,Site004,39,YEARS,F,WHITE,HISPANIC OR LATINO,DRUG 20MG,DRG10,BRA,2023-07-31
DEMO-STUDY01,DM,DEMO-STUDY01-Site003-0025,Site003-0025,2024-02-21,2024-08-15,Site003,43,YEARS,F,AMERICAN INDIAN OR ALASKA NATIVE,HISPANIC OR LATINO,PLACEBO,PBO,IND,2024-02-21
DEMO-STUDY01,DM,DEMO-STUDY01-Site008-0026,Site008-0026,2024-05-01,2024-10-28,Site008,67,YEARS,M,BLACK OR AFRICAN AMERICAN,NOT HISPANIC OR LATINO,DRUG 20MG,DRG20,DEU,2024-05-01
DEMO-STUDY01,DM,DEMO-STUDY01-Site010-0027,Site010-0027,2023-01-16,2023-12-15,Site010,18,YEARS,F,AMERICAN INDIAN OR ALASKA NATIVE,HISPANIC OR LATINO,PLACEBO,DRG20,USA,2023-01-16
DEMO-STUDY01,DM,DEMO-STUDY01-Site009-0028,Site009-0028,2023-04-23,2024-03-21,Site009,36,YEARS,F,ASIAN,NOT HISPANIC OR LATINO,DRUG 10MG,PBO,DEU,2023-04-23
DEMO-STUDY01,DM,DEMO-STUDY01-Site001-0029,Site001-0029,2024-03-09,2024-07-20,Site001,55,YEARS,F,BLACK OR AFRICAN AMERICAN,HISPANIC OR LATINO,DRUG 10MG,PBO,GBR,2024-03-09
DEMO-STUDY01,DM,DEMO-STUDY01-Site009-0030,Site009-0030,2023-12-18,2024-11-21,Site009,19,YEARS,M,AMERICAN INDIAN OR ALASKA NATIVE,HISPANIC OR LATINO,PLACEBO,PBO,DEU,2023-12-18
DEMO-STUDY01,DM,DEMO-STUDY01-Site001-0031,Site001-0031,2024-02-16,2025-01-14,Site001,38,YEARS,F,AMERICAN INDIAN OR ALASKA NATIVE,NOT HISPANIC OR LATINO,DRUG 20MG,DRG20,USA,2024-02-16
DEMO-STUDY01,DM,DEMO-STUDY01-Site001-0032,Site001-0032,2024-04-18,2024-06-08,Site001,68,YEARS,F,BLACK OR AFRICAN AMERICAN,NOT HISPANIC OR LATINO,DRUG 10MG,PBO,GBR,2024-04-18
DEMO-STUDY01,DM,DEMO-STUDY01-Site006-0033,Site006-0033,2023-10-24,2024-07-05,Site006,44,YEARS,M,BLACK OR AFRICAN AMERICAN,HISPANIC OR LATINO,DRUG 20MG,PBO,BRA,2023-10-24
DEMO-STUDY01,DM,DEMO-STUDY01-Site003-0034,Site003-0034,2024-06-13,2025-01-20,Site003,52,YEARS,M,AMERICAN INDIAN OR ALASKA NATIVE,HISPANIC OR LATINO,DRUG 10MG,PBO,BRA,2024-06-13
DEMO-STUDY01,DM,DEMO-STUDY01-Site006-0035,Site006-0035,2023-04-23,2023-06-28,Site006,58,YEARS,F,WHITE,HISPANIC OR LATINO,DRUG 10MG,PBO,GBR,2023-04-23
DEMO-STUDY01,DM,DEMO-STUDY01-Site001-0036,Site001-0036,2023-05-10,2023-11-16,Site001,38,YEARS,F,ASIAN,NOT HISPANIC OR LATINO,DRUG 10MG,PBO,IND,2023-05-10
DEMO-STUDY01,DM,DEMO-STUDY01-Site006-0037,Site006-0037,2023-12-03,2024-06-23,Site006,57,YEARS,F,BLACK OR AFRICAN AMERICAN,NOT HISPANIC OR LATINO,DRUG 20MG,DRG10,IND,2023-12-03
DEMO-STUDY01,DM,DEMO-STUDY01-Site010-0038,Site010-0038,2024-02-04,2024-12-02,Site010,43,YEARS,F,WHITE,HISPANIC OR LATINO,DRUG 20MG,DRG10,BRA,2024-02-04
DEMO-STUDY01,DM,DEMO-STUDY01-Site010-0039,Site010-0039,2024-07-05,2025-06-05,Site010,52,YEARS,M,AMERICAN INDIAN OR ALASKA NATIVE,HISPANIC OR LATINO,DRUG 10MG,DRG20,USA,2024-07-05
DEMO-STUDY01,DM,DEMO-STUDY01-Site004-0040,Site004-0040,2023-02-03,2023-11-23,Site004,18,YEARS,F,BLACK OR AFRICAN AMERICAN,NOT HISPANIC OR LATINO,DRUG 10MG,DRG20,DEU,2023-02-03
DEMO-STUDY01,DM,DEMO-STUDY01-Site002-0041,Site002-0041,2023-03-06,2023-10-07,Site002,42,YEARS,M,BLACK OR AFRICAN AMERICAN,HISPANIC OR LATINO,DRUG 10MG,DRG10,IND,2023-03-06
DEMO-STUDY01,DM,DEMO-STUDY01-Site006-0042,Site006-0042,2023-11-15,2024-06-01,Site006,69,YEARS,F,ASIAN,NOT HISPANIC OR LATINO,DRUG 20MG,PBO,USA,2023-11-15
DEMO-STUDY01,DM,DEMO-STUDY01-Site008-0043,Site008-0043,2023-03-08,2023-07-23,Site008,61,YEARS,M,ASIAN,NOT HISPANIC OR LATINO,DRUG 10MG,PBO,DEU,2023-03-08
DEMO-STUDY01,DM,DEMO-STUDY01-Site003-0044,Site003-0044,2023-10-10,2024-03-11,Site003,67,YEARS,F,BLACK OR AFRICAN AMERICAN,HISPANIC OR LATINO,PLACEBO,DRG20,GBR,2023-10-10
DEMO-STUDY01,DM,DEMO-STUDY01-Site010-0045,Site010-0045,2023-12-26,2024-05-20,Site010,54,YEARS,F,ASIAN,HISPANIC OR LATINO,PLACEBO,PBO,USA,2023-12-26
DEMO-STUDY01,DM,DEMO-STUDY01-Site010-0046,Site010-0046,2024-06-10,2025-04-25,Site010,64,YEARS,F,BLACK OR AFRICAN AMERICAN,NOT HISPANIC OR LATINO,PLACEBO,PBO,BRA,2024-06-10
DEMO-STUDY01,DM,DEMO-STUDY01-Site001-0047,Site001-0047,2023-10-13,2024-05-21,Site001,56,YEARS,M,WHITE,NOT HISPANIC OR LATINO,PLACEBO,DRG20,GBR,2023-10-13
DEMO-STUDY01,DM,DEMO-STUDY01-Site010-0048,Site010-0048,2024-03-24,2024-07-17,Site010,54,YEARS,M,WHITE,NOT HISPANIC OR LATINO,PLACEBO,DRG20,USA,2024-03-24
DEMO-STUDY01,DM,DEMO-STUDY01-Site004-0049,Site004-0049,2024-04-11,2024-12-14,Site004,29,YEARS,F,AMERICAN INDIAN OR ALASKA NATIVE,HISPANIC OR LATINO,DRUG 20MG,PBO,BRA,2024-04-11
DEMO-STUDY01,DM,DEMO-STUDY01-Site007-0050,Site007-0050,2024-06-19,2025-06-08,Site007,71,YEARS,F,BLACK OR AFRICAN AMERICAN,NOT HISPANIC OR LATINO,DRUG 20MG,DRG10,IND,2024-06-19
DEMO-STUDY01,DM,DEMO-STUDY01-Site003-0051,Site003-0051,2024-03-31,2025-01-11,Site003,49,YEARS,F,WHITE,HISPANIC OR LATINO,DRUG 20MG,DRG10,USA,2024-03-31
DEMO-STUDY01,DM,DEMO-STUDY01-Site004-0052,Site004-0052,2024-01-29,2024-08-24,Site004,50,YEARS,M,WHITE,NOT HISPANIC OR LATINO,DRUG 20MG,PBO,USA,2024-01-29
DEMO-STUDY01,DM,DEMO-STUDY01-Site008-0053,Site008-0053,2023-02-26,2024-01-06,Site008,61,YEARS,M,AMERICAN INDIAN OR ALASKA NATIVE,HISPANIC OR LATINO,DRUG 10MG,DRG10,BRA,2023-02-26
DEMO-STUDY01,DM,DEMO-STUDY01-Site003-0054,Site003-0054,2023-02-18,2023-06-17,Site003,40,YEARS,F,WHITE,NOT HISPANIC OR LATINO,DRUG 10MG,DRG10,IND,2023-02-18
DEMO-STUDY01,DM,DEMO-STUDY01-Site003-0055,Site003-0055,2023-07-29,2023-12-19,Site003,75,YEARS,M,ASIAN,HISPANIC OR LATINO,PLACEBO,PBO,BRA,2023-07-29
DEMO-STUDY01,DM,DEMO-STUDY01-Site009-0056,Site009-0056,2024-02-12,2024-09-20,Site009,54,YEARS,M,WHITE,HISPANIC OR LATINO,DRUG 10MG,PBO,BRA,2024-02-12
DEMO-STUDY01,DM,DEMO-STUDY01-Site001-0057,Site001-0057,2024-06-22,2025-02-23,Site001,40,YEARS,M,WHITE,NOT HISPANIC OR LATINO,PLACEBO,PBO,DEU,2024-06-22
DEMO-STUDY01,DM,DEMO-STUDY01-Site009-0058,Site009-0058,2023-12-22,2024-07-25,Site009,30,YEARS,M,WHITE,NOT HISPANIC OR LATINO,PLACEBO,PBO,GBR,2023-12-22
DEMO-STUDY01,DM,DEMO-STUDY01-Site009-0059,Site009-0059,2024-04-13,2024-12-04,Site009,45,YEARS,M,AMERICAN INDIAN OR ALASKA NATIVE,NOT HISPANIC OR LATINO,DRUG 20MG,DRG10,BRA,2024-04-13
DEMO-STUDY01,DM,DEMO-STUDY01-Site005-0060,Site005-0060,2023-04-23,2023-06-16,Site005,29,YEARS,F,ASIAN,HISPANIC OR LATINO,PLACEBO,DRG20,USA,2023-04-23
DEMO-STUDY01,DM,DEMO-STUDY01-Site007-0061,Site007-0061,2023-05-03,2023-07-13,Site007,70,YEARS,F,ASIAN,NOT HISPANIC OR LATINO,DRUG 20MG,DRG10,BRA,2023-05-03
DEMO-STUDY01,DM,DEMO-STUDY01-Site003-0062,Site003-0062,2023-08-17,2024-05-07,Site003,46,YEARS,M,BLACK OR AFRICAN AMERICAN,HISPANIC OR LATINO,PLACEBO,DRG10,IND,2023-08-17
DEMO-STUDY01,DM,DEMO-STUDY01-Site001-0063,Site001-0063,2023-09-24,2023-10-30,Site001,55,YEARS,F,WHITE,NOT HISPANIC OR LATINO,DRUG 10MG,PBO,IND,2023-09-24
DEMO-STUDY01,DM,DEMO-STUDY01-Site010-0064,Site010-0064,2023-07-27,2023-09-23,Site010,22,YEARS,M,BLACK OR AFRICAN AMERICAN,HISPANIC OR LATINO,PLACEBO,PBO,DEU,2023-07-27
DEMO-STUDY01,DM,DEMO-STUDY01-Site001-0065,Site001-0065,2024-06-08,2025-02-09,Site001,24,YEARS,M,AMERICAN INDIAN OR ALASKA NATIVE,NOT HISPANIC OR LATINO,DRUG 10MG,DRG20,GBR,2024-06-08
DEMO-STUDY01,DM,DEMO-STUDY01-Site006-0066,Site006-0066,2023-06-30,2024-02-16,Site006,44,YEARS,F,ASIAN,HISPANIC OR LATINO,DRUG 10MG,DRG20,BRA,2023-06-30
DEMO-STUDY01,DM,DEMO-STUDY01-Site002-0067,Site002-0067,2023-08-22,2024-02-15,Site002,75,YEARS,F,AMERICAN INDIAN OR ALASKA NATIVE,HISPANIC OR LATINO,DRUG 20MG,PBO,USA,2023-08-22
DEMO-STUDY01,DM,DEMO-STUDY01-Site003-0068,Site003-0068,2023-12-28,2024-08-04,Site003,74,YEARS,F,WHITE,HISPANIC OR LATINO,PLACEBO,DRG10,BRA,2023-12-28
DEMO-STUDY01,DM,DEMO-STUDY01-Site006-0069,Site006-0069,2023-03-13,2023-10-01,Site006,61,YEARS,F,WHITE,HISPANIC OR LATINO,DRUG 20MG,PBO,BRA,2023-03-13
DEMO-STUDY01,DM,DEMO-STUDY01-Site005-0070,Site005-0070,2023-08-29,2023-10-17,Site005,36,YEARS,M,BLACK OR AFRICAN AMERICAN,HISPANIC OR LATINO,PLACEBO,PBO,USA,2023-08-29
DEMO-STUDY01,DM,DEMO-STUDY01-Site005-0071,Site005-0071,2023-09-30,2023-11-10,Site005,33,YEARS,F,AMERICAN INDIAN OR ALASKA NATIVE,NOT HISPANIC OR LATINO,DRUG 10MG,PBO,IND,2023-09-30
DEMO-STUDY01,DM,DEMO-STUDY01-Site004-0072,Site004-0072,2023-04-14,2023-11-15,Site004,25,YEARS,F,BLACK OR AFRICAN AMERICAN,NOT HISPANIC OR LATINO,PLACEBO,PBO,DEU,2023-04-14
DEMO-STUDY01,DM,DEMO-STUDY01-Site006-0073,Site006-0073,2023-06-08,2024-02-04,Site006,26,YEARS,M,AMERICAN INDIAN OR ALASKA NATIVE,NOT HISPANIC OR LATINO,PLACEBO,PBO,GBR,2023-06-08
DEMO-STUDY01,DM,DEMO-STUDY01-Site006-0074,Site006-0074,2023-09-27,2024-08-24,Site006,22,YEARS,M,BLACK OR AFRICAN AMERICAN,NOT HISPANIC OR LATINO,DRUG 10MG,DRG10,GBR,2023-09-27
DEMO-STUDY01,DM,DEMO-STUDY01-Site005-0075,Site005-0075,2023-05-13,2024-03-26,Site005,73,YEARS,F,WHITE,NOT HISPANIC OR LATINO,DRUG 20MG,PBO,GBR,2023-05-13
DEMO-STUDY01,DM,DEMO-STUDY01-Site005-0076,Site005-0076,2023-10-23,2024-10-01,Site005,42,YEARS,M,WHITE,HISPANIC OR LATINO,PLACEBO,DRG10,USA,2023-10-23
DEMO-STUDY01,DM,DEMO-STUDY01-Site003-0077,Site003-0077,2024-06-08,2025-05-14,Site003,18,YEARS,F,AMERICAN INDIAN OR ALASKA NATIVE,HISPANIC OR LATINO,PLACEBO,DRG20,BRA,2024-06-08
DEMO-STUDY01,DM,DEMO-STUDY01-Site006-0078,Site006-0078,2024-03-26,2024-06-16,Site006,40,YEARS,M,BLACK OR AFRICAN AMERICAN,NOT HISPANIC OR LATINO,DRUG 20MG,PBO,BRA,2024-03-26
DEMO-STUDY01,DM,DEMO-STUDY01-Site009-0079,Site009-0079,2023-01-15,2023-08-05,Site009,68,YEARS,M,AMERICAN INDIAN OR ALASKA NATIVE,NOT HISPANIC OR LATINO,PLACEBO,PBO,IND,2023-01-15
DEMO-STUDY01,DM,DEMO-STUDY01-Site008-0080,Site008-0080,2023-06-17,2023-12-25,Site008,75,YEARS,F,BLACK OR AFRICAN AMERICAN,HISPANIC OR LATINO,DRUG 20MG,DRG10,DEU,2023-06-17
DEMO-STUDY01,DM,DEMO-STUDY01-Site001-0081,Site001-0081,2023-03-09,2023-11-15,Site001,61,YEARS,M,WHITE,HISPANIC OR LATINO,DRUG 20MG,DRG20,BRA,2023-03-09
DEMO-STUDY01,DM,DEMO-STUDY01-Site005-0082,Site005-0082,2023-03-30,2023-08-09,Site005,68,YEARS,F,AMERICAN INDIAN OR ALASKA NATIVE,NOT HISPANIC OR LATINO,DRUG 10MG,DRG10,IND,2023-03-30
DEMO-STUDY01,DM,DEMO-STUDY01-Site002-0083,Site002-0083,2023-12-15,2024-11-16,Site002,44,YEARS,M,BLACK OR AFRICAN AMERICAN,HISPANIC OR LATINO,DRUG 20MG,DRG10,IND,2023-12-15
DEMO-STUDY01,DM,DEMO-STUDY01-Site003-0084,Site003-0084,2023-04-05,2024-02-13,Site003,22,YEARS,F,BLACK OR AFRICAN AMERICAN,NOT HISPANIC OR LATINO,PLACEBO,DRG10,USA,2023-04-05
DEMO-STUDY01,DM,DEMO-STUDY01-Site004-0085,Site004-0085,2023-03-24,2024-01-09,Site004,51,YEARS,M,BLACK OR AFRICAN AMERICAN,HISPANIC OR LATINO,DRUG 10MG,DRG20,GBR,2023-03-24
DEMO-STUDY01,DM,DEMO-STUDY01-Site003-0086,Site003-0086,2023-05-05,2023-11-01,Site003,74,YEARS,M,AMERICAN INDIAN OR ALASKA NATIVE,HISPANIC OR LATINO,DRUG 20MG,DRG10,DEU,2023-05-05
DEMO-STUDY01,DM,DEMO-STUDY01-Site008-0087,Site008-0087,2023-10-22,2024-06-02,Site008,20,YEARS,M,WHITE,NOT HISPANIC OR LATINO,DRUG 10MG,PBO,IND,2023-10-22
DEMO-STUDY01,DM,DEMO-STUDY01-Site003-0088,Site003-0088,2024-02-21,2024-03-26,Site003,38,YEARS,F,AMERICAN INDIAN OR ALASKA NATIVE,NOT HISPANIC OR LATINO,PLACEBO,DRG10,BRA,2024-02-21
DEMO-STUDY01,DM,DEMO-STUDY01-Site006-0089,Site006-0089,2024-06-10,2025-02-27,Site006,22,YEARS,F,BLACK OR AFRICAN AMERICAN,NOT HISPANIC OR LATINO,DRUG 10MG,PBO,IND,2024-06-10
DEMO-STUDY01,DM,DEMO-STUDY01-Site009-0090,Site009-0090,2023-09-20,2024-02-17,Site009,64,YEARS,F,ASIAN,NOT HISPANIC OR LATINO,DRUG 10MG,DRG20,BRA,2023-09-20
DEMO-STUDY01,DM,DEMO-STUDY01-Site001-0091,Site001-0091,2023-02-09,2023-11-22,Site001,53,YEARS,F,WHITE,HISPANIC OR LATINO,PLACEBO,DRG20,IND,2023-02-09
DEMO-STUDY01,DM,DEMO-STUDY01-Site007-0092,Site007-0092,2023-04-02,2023-10-02,Site007,41,YEARS,F,ASIAN,NOT HISPANIC OR LATINO,DRUG 20MG,DRG20,GBR,2023-04-02
DEMO-STUDY01,DM,DEMO-STUDY01-Site007-0093,Site007-0093,2024-01-12,2024-11-10,Site007,64,YEARS,F,BLACK OR AFRICAN AMERICAN,HISPANIC OR LATINO,DRUG 20MG,DRG20,USA,2024-01-12
DEMO-STUDY01,DM,DEMO-STUDY01-Site007-0094,Site007-0094,2024-05-13,2024-12-30,Site007,45,YEARS,M,WHITE,HISPANIC OR LATINO,DRUG 20MG,DRG10,IND,2024-05-13
DEMO-STUDY01,DM,DEMO-STUDY01-Site009-0095,Site009-0095,2023-06-08,2024-02-04,Site009,30,YEARS,M,AMERICAN INDIAN OR ALASKA NATIVE,NOT HISPANIC OR LATINO,DRUG 20MG,PBO,BRA,2023-06-08
DEMO-STUDY01,DM,DEMO-STUDY01-Site002-0096,Site002-0096,2023-05-05,2023-09-22,Site002,53,YEARS,F,BLACK OR AFRICAN AMERICAN,HISPANIC OR LATINO,PLACEBO,DRG20,IND,2023-05-05
DEMO-STUDY01,DM,DEMO-STUDY01-Site009-0097,Site009-0097,2024-06-15,2025-04-22,Site009,69,YEARS,F,BLACK OR AFRICAN AMERICAN,HISPANIC OR LATINO,DRUG 20MG,PBO,BRA,2024-06-15
DEMO-STUDY01,DM,DEMO-STUDY01-Site009-0098,Site009-0098,2023-10-30,2024-04-26,Site009,70,YEARS,M,BLACK OR AFRICAN AMERICAN,NOT HISPANIC OR LATINO,DRUG 20MG,DRG10,GBR,2023-10-30
DEMO-STUDY01,DM,DEMO-STUDY01-Site008-0099,Site008-0099,2023-05-31,2024-02-27,Site008,72,YEARS,M,AMERICAN INDIAN OR ALASKA NATIVE,HISPANIC OR LATINO,DRUG 20MG,DRG10,IND,2023-05-31
DEMO-STUDY01,DM,DEMO-STUDY01-Site004-0100,Site004-0100,2023-03-30,2024-03-28,Site004,21,YEARS,F,BLACK OR AFRICAN AMERICAN,HISPANIC OR LATINO,DRUG 10MG,DRG10,GBR,2023-03-30
DEMO-STUDY01,DM,DEMO-STUDY01-Site009-0101,Site009-0101,2023-07-27,2024-03-15,Site009,32,YEARS,F,BLACK OR AFRICAN AMERICAN,HISPANIC OR LATINO,PLACEBO,PBO,IND,2023-07-27
DEMO-STUDY01,DM,DEMO-STUDY01-Site006-0102,Site006-0102,2023-08-27,2024-01-16,Site006,37,YEARS,F,ASIAN,HISPANIC OR LATINO,DRUG 10MG,DRG10,BRA,2023-08-27
DEMO-STUDY01,DM,DEMO-STUDY01-Site004-0103,Site004-0103,2023-09-30,2024-04-24,Site004,50,YEARS,F,BLACK OR AFRICAN AMERICAN,HISPANIC OR LATINO,DRUG 20MG,DRG10,DEU,2023-09-30
DEMO-STUDY01,DM,DEMO-STUDY01-Site002-0104,Site002-0104,2023-01-27,2023-07-05,Site002,57,YEARS,F,WHITE,HISPANIC OR LATINO,PLACEBO,PBO,USA,2023-01-27
DEMO-STUDY01,DM,DEMO-STUDY01-Site009-0105,Site009-0105,2024-03-08,2024-07-10,Site009,47,YEARS,M,WHITE,NOT HISPANIC OR LATINO,DRUG 10MG,DRG10,BRA,2024-03-08
DEMO-STUDY01,DM,DEMO-STUDY01-Site008-0106,Site008-0106,2024-04-17,2024-07-31,Site008,26,YEARS,M,ASIAN,HISPANIC OR LATINO,DRUG 10MG,PBO,GBR,2024-04-17
DEMO-STUDY01,DM,DEMO-STUDY01-Site009-0107,Site009-0107,2023-08-31,2024-08-10,Site009,31,YEARS,F,ASIAN,HISPANIC OR LATINO,PLACEBO,PBO,GBR,2023-08-31
DEMO-STUDY01,DM,DEMO-STUDY01-Site010-0108,Site010-0108,2023-05-26,2024-02-16,Site010,42,YEARS,F,WHITE,NOT HISPANIC OR LATINO,DRUG 20MG,DRG10,GBR,2023-05-26
DEMO-STUDY01,DM,DEMO-STUDY01-Site006-0109,Site006-0109,2023-02-06,2023-08-07,Site006,32,YEARS,M,WHITE,HISPANIC OR LATINO,DRUG 20MG,DRG10,BRA,2023-02-06
DEMO-STUDY01,DM,DEMO-STUDY01-Site008-0110,Site008-0110,2023-04-28,2023-07-05,Site008,68,YEARS,M,BLACK OR AFRICAN AMERICAN,NOT HISPANIC OR LATINO,DRUG 20MG,DRG20,GBR,2023-04-28
DEMO-STUDY01,DM,DEMO-STUDY01-Site008-0111,Site008-0111,2024-04-06,2024-05-20,Site008,69,YEARS,M,WHITE,HISPANIC OR LATINO,DRUG 10MG,DRG20,GBR,2024-04-06
DEMO-STUDY01,DM,DEMO-STUDY01-Site004-0112,Site004-0112,2023-06-20,2023-10-24,Site004,55,YEARS,M,WHITE,HISPANIC OR LATINO,DRUG 20MG,PBO,DEU,2023-06-20
DEMO-STUDY01,DM,DEMO-STUDY01-Site006-0113,Site006-0113,2024-06-19,2024-11-18,Site006,22,YEARS,F,WHITE,NOT HISPANIC OR LATINO,DRUG 10MG,PBO,DEU,2024-06-19
DEMO-STUDY01,DM,DEMO-STUDY01-Site008-0114,Site008-0114,2023-01-29,2023-07-13,Site008,46,YEARS,M,WHITE,HISPANIC OR LATINO,PLACEBO,DRG10,GBR,2023-01-29
DEMO-STUDY01,DM,DEMO-STUDY01-Site003-0115,Site003-0115,2023-11-02,2024-09-25,Site003,43,YEARS,M,WHITE,NOT HISPANIC OR LATINO,DRUG 20MG,DRG10,IND,2023-11-02
DEMO-STUDY01,DM,DEMO-STUDY01-Site008-0116,Site008-0116,2023-05-28,2023-07-19,Site008,25,YEARS,M,BLACK OR AFRICAN AMERICAN,NOT HISPANIC OR LATINO,DRUG 20MG,DRG10,BRA,2023-05-28
DEMO-STUDY01,DM,DEMO-STUDY01-Site008-0117,Site008-0117,2023-08-12,2023-12-30,Site008,42,YEARS,F,AMERICAN INDIAN OR ALASKA NATIVE,HISPANIC OR LATINO,PLACEBO,PBO,IND,2023-08-12
DEMO-STUDY01,DM,DEMO-STUDY01-Site001-0118,Site001-0118,2024-01-27,2024-04-16,Site001,26,YEARS,M,BLACK OR AFRICAN AMERICAN,NOT HISPANIC OR LATINO,PLACEBO,DRG10,GBR,2024-01-27
DEMO-STUDY01,DM,DEMO-STUDY01-Site007-0119,Site007-0119,2024-02-23,2024-07-11,Site007,43,YEARS,F,BLACK OR AFRICAN AMERICAN,HISPANIC OR LATINO,PLACEBO,PBO,GBR,2024-02-23
DEMO-STUDY01,DM,DEMO-STUDY01-Site008-0120,Site008-0120,2024-03-20,2025-02-21,Site008,26,YEARS,M,BLACK OR AFRICAN AMERICAN,NOT HISPANIC OR LATINO,PLACEBO,PBO,IND,2024-03-20
